reward_today,future_today,delay,trials.thisRepN,trials.thisTrialN,trials.thisN,trials.thisIndex,thisRow.t,notes,trial.started,fixation.started,text.started,key_resp.started,fixation.stopped,trial.stopped,key_resp.keys,key_resp.rt,key_resp.duration,participant,session,date,expName,psychopyVersion,frameRate,expStart,
67,75,119,0,0,0,5,0.46188699998310767,,0.2707143999869004,0.46188699998310767,1.00687260000268,1.00687260000268,1.4732946000003722,2.7400616999948397,t,1.6389812999987043,None,516143,001,2024-11-12_08h26.29.365,PRIYANSHI.AU2220101_DELAY.DISCOUNTING,2024.1.5,None,2024-11-12 08h26.36.974289 +0530,
11,30,7,0,1,1,0,2.756209499988472,,2.741479399992386,2.756209499988472,3.7403223000001162,3.7403223000001162,3.7582004999858327,6.008980199985672,l,2.251552999980049,None,516143,001,2024-11-12_08h26.29.365,PRIYANSHI.AU2220101_DELAY.DISCOUNTING,2024.1.5,None,2024-11-12 08h26.36.974289 +0530,
49,60,89,0,2,2,4,6.034788599994499,,6.009787099988898,6.034788599994499,7.0239956000004895,7.0239956000004895,7.040449299995089,8.858774499996798,t,1.8295117000234313,None,516143,001,2024-11-12_08h26.29.365,PRIYANSHI.AU2220101_DELAY.DISCOUNTING,2024.1.5,None,2024-11-12 08h26.36.974289 +0530,
78,80,162,0,3,3,6,8.88111819999176,,8.859686799987685,8.88111819999176,9.87401209998643,9.87401209998643,9.890830699994694,15.225766299990937,t,5.3338490999885835,None,516143,001,2024-11-12_08h26.29.365,PRIYANSHI.AU2220101_DELAY.DISCOUNTING,2024.1.5,None,2024-11-12 08h26.36.974289 +0530,
40,55,62,0,4,4,3,15.24129959999118,,15.226571100007277,15.24129959999118,16.240162200003397,16.240162200003397,16.240162200003397,18.92401930000051,l,2.672016700002132,None,516143,001,2024-11-12_08h26.29.365,PRIYANSHI.AU2220101_DELAY.DISCOUNTING,2024.1.5,None,2024-11-12 08h26.36.974289 +0530,
27,50,21,0,5,5,2,18.941758700006176,,18.924931999994442,18.941758700006176,19.94017439999152,19.94017439999152,19.956364699988626,22.474920200009365,t,2.529504000005545,None,516143,001,2024-11-12_08h26.29.365,PRIYANSHI.AU2220101_DELAY.DISCOUNTING,2024.1.5,None,2024-11-12 08h26.36.974289 +0530,
15,35,13,0,6,6,1,22.490071500011254,,22.475783100002445,22.490071500011254,23.49040629999945,23.49040629999945,23.49040629999945,25.878170799987856,l,2.3730338999885134,None,516143,001,2024-11-12_08h26.29.365,PRIYANSHI.AU2220101_DELAY.DISCOUNTING,2024.1.5,None,2024-11-12 08h26.36.974289 +0530,
11,30,7,1,0,7,0,25.905039999983273,,25.879123099992285,25.905039999983273,26.88933440000983,26.88933440000983,26.906522800010862,29.508032299985643,l,2.6143366000032984,None,516143,001,2024-11-12_08h26.29.365,PRIYANSHI.AU2220101_DELAY.DISCOUNTING,2024.1.5,None,2024-11-12 08h26.36.974289 +0530,
49,60,89,1,1,8,4,29.5238141999871,,29.50889470000402,29.5238141999871,30.52380570000969,30.52380570000969,30.52380570000969,31.54128080001101,t,1.012206099985633,None,516143,001,2024-11-12_08h26.29.365,PRIYANSHI.AU2220101_DELAY.DISCOUNTING,2024.1.5,None,2024-11-12 08h26.36.974289 +0530,
78,80,162,1,2,9,6,31.556695999985095,,31.542166200000793,31.556695999985095,32.555925799999386,32.555925799999386,32.57290880000801,35.22793239998282,t,2.657201399997575,None,516143,001,2024-11-12_08h26.29.365,PRIYANSHI.AU2220101_DELAY.DISCOUNTING,2024.1.5,None,2024-11-12 08h26.36.974289 +0530,
40,55,62,1,3,10,3,35.24675540000317,,35.22926590000861,35.24675540000317,36.23974509999971,36.23974509999971,36.25507539999671,39.75919129999238,l,3.504969599976903,None,516143,001,2024-11-12_08h26.29.365,PRIYANSHI.AU2220101_DELAY.DISCOUNTING,2024.1.5,None,2024-11-12 08h26.36.974289 +0530,
67,75,119,1,4,11,5,39.77620530000422,,39.760462000005646,39.77620530000422,40.77217589999782,40.77217589999782,40.78933319999487,43.89103020000039,l,3.1012698999838904,None,516143,001,2024-11-12_08h26.29.365,PRIYANSHI.AU2220101_DELAY.DISCOUNTING,2024.1.5,None,2024-11-12 08h26.36.974289 +0530,
27,50,21,1,5,12,2,43.91002700000536,,43.892020400002366,43.91002700000536,44.90556839999044,44.90556839999044,44.92264669999713,47.842812799994135,l,2.922558599995682,None,516143,001,2024-11-12_08h26.29.365,PRIYANSHI.AU2220101_DELAY.DISCOUNTING,2024.1.5,None,2024-11-12 08h26.36.974289 +0530,
15,35,13,1,6,13,1,47.85652790000313,,47.843587399984244,47.85652790000313,48.856126600003336,48.856126600003336,48.87217610000516,50.42227589999675,t,1.556180100014899,None,516143,001,2024-11-12_08h26.29.365,PRIYANSHI.AU2220101_DELAY.DISCOUNTING,2024.1.5,None,2024-11-12 08h26.36.974289 +0530,
15,35,13,2,0,14,1,50.43843599999673,,50.423576500004856,50.43843599999673,51.422261600004276,51.422261600004276,51.43845429999055,52.5562082999968,t,1.1256222000229172,None,516143,001,2024-11-12_08h26.29.365,PRIYANSHI.AU2220101_DELAY.DISCOUNTING,2024.1.5,None,2024-11-12 08h26.36.974289 +0530,
49,60,89,2,1,15,4,52.57427939999616,,52.55700549998437,52.57427939999616,53.55661309999414,53.55661309999414,53.57244859999628,55.80768920000992,l,2.2487349000002723,None,516143,001,2024-11-12_08h26.29.365,PRIYANSHI.AU2220101_DELAY.DISCOUNTING,2024.1.5,None,2024-11-12 08h26.36.974289 +0530,
27,50,21,2,2,16,2,55.82260230000247,,55.80861310000182,55.82260230000247,56.8216614999983,56.8216614999983,56.8216614999983,58.94025590000092,l,2.111383699986618,None,516143,001,2024-11-12_08h26.29.365,PRIYANSHI.AU2220101_DELAY.DISCOUNTING,2024.1.5,None,2024-11-12 08h26.36.974289 +0530,
40,55,62,2,3,17,3,58.958697199996095,,58.941567700007,58.958697199996095,59.95525430000271,59.95525430000271,59.97315899998648,60.83972099999664,t,0.8725363000121433,None,516143,001,2024-11-12_08h26.29.365,PRIYANSHI.AU2220101_DELAY.DISCOUNTING,2024.1.5,None,2024-11-12 08h26.36.974289 +0530,
78,80,162,2,4,18,6,60.85662099998444,,60.841099199984455,60.85662099998444,61.85515319998376,61.85515319998376,61.871677599992836,64.37336289999075,t,2.5145933000021614,None,516143,001,2024-11-12_08h26.29.365,PRIYANSHI.AU2220101_DELAY.DISCOUNTING,2024.1.5,None,2024-11-12 08h26.36.974289 +0530,
11,30,7,2,5,19,0,64.39106699998956,,64.37476659999811,64.39106699998956,65.38882059999742,65.38882059999742,65.40620040000067,66.87322000000859,l,1.4811220999981742,None,516143,001,2024-11-12_08h26.29.365,PRIYANSHI.AU2220101_DELAY.DISCOUNTING,2024.1.5,None,2024-11-12 08h26.36.974289 +0530,
67,75,119,2,6,20,5,66.88952460000291,,66.87407759999041,66.88952460000291,67.88837500000955,67.88837500000955,67.90492450000602,70.72289899998577,l,2.831345099984901,None,516143,001,2024-11-12_08h26.29.365,PRIYANSHI.AU2220101_DELAY.DISCOUNTING,2024.1.5,None,2024-11-12 08h26.36.974289 +0530,
67,75,119,3,0,21,5,70.7379726000072,,70.723992299987,70.7379726000072,71.738231299998,71.738231299998,71.738231299998,73.62421660000109,t,1.8716395000228658,None,516143,001,2024-11-12_08h26.29.365,PRIYANSHI.AU2220101_DELAY.DISCOUNTING,2024.1.5,None,2024-11-12 08h26.36.974289 +0530,
11,30,7,3,1,22,0,73.63823019998381,,73.62507059998461,73.63823019998381,74.63973719999194,74.63973719999194,74.63973719999194,78.47225849999813,l,3.8186597999883816,None,516143,001,2024-11-12_08h26.29.365,PRIYANSHI.AU2220101_DELAY.DISCOUNTING,2024.1.5,None,2024-11-12 08h26.36.974289 +0530,
49,60,89,3,2,23,4,78.48966789999395,,78.47314029998961,78.48966789999395,79.4724084000045,79.4724084000045,79.48824390000664,81.29125429998385,l,1.8091271999874152,None,516143,001,2024-11-12_08h26.29.365,PRIYANSHI.AU2220101_DELAY.DISCOUNTING,2024.1.5,None,2024-11-12 08h26.36.974289 +0530,
40,55,62,3,3,24,3,81.30624000000535,,81.29203529999359,81.30624000000535,82.30473030000576,82.30473030000576,82.30473030000576,83.9728965999966,t,1.6551216999941971,None,516143,001,2024-11-12_08h26.29.365,PRIYANSHI.AU2220101_DELAY.DISCOUNTING,2024.1.5,None,2024-11-12 08h26.36.974289 +0530,
27,50,21,3,4,25,2,83.98831829999108,,83.97364899999229,83.98831829999108,84.9881793000095,84.9881793000095,84.9881793000095,88.57241140000406,l,3.5682969000190496,None,516143,001,2024-11-12_08h26.29.365,PRIYANSHI.AU2220101_DELAY.DISCOUNTING,2024.1.5,None,2024-11-12 08h26.36.974289 +0530,
15,35,13,3,5,26,1,88.58850159999565,,88.57328489999054,88.58850159999565,89.58866829998442,89.58866829998442,89.58866829998442,94.00563770000008,l,4.3999483000079636,None,516143,001,2024-11-12_08h26.29.365,PRIYANSHI.AU2220101_DELAY.DISCOUNTING,2024.1.5,None,2024-11-12 08h26.36.974289 +0530,
78,80,162,3,6,27,6,94.02651470000274,,94.00643569999374,94.02651470000274,95.02187009999761,95.02187009999761,95.03755720000481,97.48918899998534,t,2.4615374999993946,None,516143,001,2024-11-12_08h26.29.365,PRIYANSHI.AU2220101_DELAY.DISCOUNTING,2024.1.5,None,2024-11-12 08h26.36.974289 +0530,
27,50,21,4,0,28,2,97.50754299998516,,97.49014189999434,97.50754299998516,98.48796389999916,98.48796389999916,98.52104880000115,100.8383884000068,l,2.335232300014468,None,516143,001,2024-11-12_08h26.29.365,PRIYANSHI.AU2220101_DELAY.DISCOUNTING,2024.1.5,None,2024-11-12 08h26.36.974289 +0530,
11,30,7,4,1,29,0,100.85501929998281,,100.83978929999284,100.85501929998281,101.83781649998855,101.83781649998855,101.8545921999903,103.67228329999489,t,1.8257438000000548,None,516143,001,2024-11-12_08h26.29.365,PRIYANSHI.AU2220101_DELAY.DISCOUNTING,2024.1.5,None,2024-11-12 08h26.36.974289 +0530,
67,75,119,4,2,30,5,103.69017759998678,,103.6736677000008,103.69017759998678,104.68787200000952,104.68787200000952,104.70424980000826,106.30928280000808,l,1.6184068000002299,None,516143,001,2024-11-12_08h26.29.365,PRIYANSHI.AU2220101_DELAY.DISCOUNTING,2024.1.5,None,2024-11-12 08h26.36.974289 +0530,
15,35,13,4,3,31,1,106.32659579999745,,106.31068110000342,106.32659579999745,107.32059670001036,107.32059670001036,107.33725019998383,109.75610110000707,t,2.425246700004209,None,516143,001,2024-11-12_08h26.29.365,PRIYANSHI.AU2220101_DELAY.DISCOUNTING,2024.1.5,None,2024-11-12 08h26.36.974289 +0530,
49,60,89,4,4,32,4,109.77068829999189,,109.75691329999245,109.77068829999189,110.77087360000587,110.77087360000587,110.77087360000587,113.7890092000016,t,3.0150815999950282,None,516143,001,2024-11-12_08h26.29.365,PRIYANSHI.AU2220101_DELAY.DISCOUNTING,2024.1.5,None,2024-11-12 08h26.36.974289 +0530,
78,80,162,4,5,33,6,113.8079754000064,,113.79043850000016,113.8079754000064,114.80454189999728,114.80454189999728,114.82029400000465,116.73783749999711,t,1.9233685999934096,None,516143,001,2024-11-12_08h26.29.365,PRIYANSHI.AU2220101_DELAY.DISCOUNTING,2024.1.5,None,2024-11-12 08h26.36.974289 +0530,
40,55,62,4,6,34,3,116.7548933000071,,116.73868799998309,116.7548933000071,117.73724690001109,117.73724690001109,117.75389779999387,119.65581409999868,l,1.9116184000158682,None,516143,001,2024-11-12_08h26.29.365,PRIYANSHI.AU2220101_DELAY.DISCOUNTING,2024.1.5,None,2024-11-12 08h26.36.974289 +0530,
15,35,13,5,0,35,1,119.67089579999447,,119.65688679998857,119.67089579999447,120.67002099999809,120.67002099999809,120.67002099999809,123.7551947000029,t,3.078900499996962,None,516143,001,2024-11-12_08h26.29.365,PRIYANSHI.AU2220101_DELAY.DISCOUNTING,2024.1.5,None,2024-11-12 08h26.36.974289 +0530,
67,75,119,5,1,36,5,123.7713619999995,,123.75615780000226,123.7713619999995,124.77019959999598,124.77019959999598,124.78673870000057,127.23840120001114,l,2.460243999987142,None,516143,001,2024-11-12_08h26.29.365,PRIYANSHI.AU2220101_DELAY.DISCOUNTING,2024.1.5,None,2024-11-12 08h26.36.974289 +0530,
78,80,162,5,2,37,6,127.25501349999104,,127.23923109998577,127.25501349999104,128.2534672000038,128.2534672000038,128.2700138000073,131.1539211999916,t,2.885067600000184,None,516143,001,2024-11-12_08h26.29.365,PRIYANSHI.AU2220101_DELAY.DISCOUNTING,2024.1.5,None,2024-11-12 08h26.36.974289 +0530,
27,50,21,5,3,38,2,131.17083029999048,,131.15523539998685,131.17083029999048,132.16957969998475,132.16957969998475,132.16957969998475,133.68838000000687,l,1.5133255000109784,None,516143,001,2024-11-12_08h26.29.365,PRIYANSHI.AU2220101_DELAY.DISCOUNTING,2024.1.5,None,2024-11-12 08h26.36.974289 +0530,
40,55,62,5,4,39,3,133.70335719999275,,133.68932070001028,133.70335719999275,134.70309920000727,134.70309920000727,134.70309920000727,136.18907580000814,t,1.4820135999761987,None,516143,001,2024-11-12_08h26.29.365,PRIYANSHI.AU2220101_DELAY.DISCOUNTING,2024.1.5,None,2024-11-12 08h26.36.974289 +0530,
49,60,89,5,5,40,4,136.20448270000634,,136.18992099998286,136.20448270000634,137.2027562999865,137.2027562999865,137.21974490000866,140.53873269999167,t,3.3308216999867,None,516143,001,2024-11-12_08h26.29.365,PRIYANSHI.AU2220101_DELAY.DISCOUNTING,2024.1.5,None,2024-11-12 08h26.36.974289 +0530,
11,30,7,5,6,41,0,140.5536763999844,,140.53960809999262,140.5536763999844,141.5534142999968,141.5534142999968,141.5534142999968,142.92132480000146,t,1.3516232999973,None,516143,001,2024-11-12_08h26.29.365,PRIYANSHI.AU2220101_DELAY.DISCOUNTING,2024.1.5,None,2024-11-12 08h26.36.974289 +0530,
49,60,89,6,0,42,4,142.93634200000088,,142.92217619999428,142.93634200000088,143.9365880000114,143.9365880000114,143.9365880000114,146.37118899999768,l,2.4305080999911297,None,516143,001,2024-11-12_08h26.29.365,PRIYANSHI.AU2220101_DELAY.DISCOUNTING,2024.1.5,None,2024-11-12 08h26.36.974289 +0530,
11,30,7,6,1,43,0,146.38679799999227,,146.37209160000202,146.38679799999227,147.3864035999868,147.3864035999868,147.3864035999868,148.82145019999007,t,1.4182967000233475,None,516143,001,2024-11-12_08h26.29.365,PRIYANSHI.AU2220101_DELAY.DISCOUNTING,2024.1.5,None,2024-11-12 08h26.36.974289 +0530,
67,75,119,6,2,44,5,148.8361687999859,,148.8223178999906,148.8361687999859,149.83675409998978,149.83675409998978,149.83675409998978,153.75375199998962,t,3.90091370002483,None,516143,001,2024-11-12_08h26.29.365,PRIYANSHI.AU2220101_DELAY.DISCOUNTING,2024.1.5,None,2024-11-12 08h26.36.974289 +0530,
15,35,13,6,3,45,1,153.77080749999732,,153.75459669998963,153.77080749999732,154.76952810000512,154.76952810000512,154.76952810000512,156.47111620000214,l,1.6939461999863852,None,516143,001,2024-11-12_08h26.29.365,PRIYANSHI.AU2220101_DELAY.DISCOUNTING,2024.1.5,None,2024-11-12 08h26.36.974289 +0530,
78,80,162,6,4,46,6,156.4907406999846,,156.47242139998707,156.4907406999846,157.4860248999903,157.4860248999903,157.50328859998262,159.85431359999347,t,2.361432200006675,None,516143,001,2024-11-12_08h26.29.365,PRIYANSHI.AU2220101_DELAY.DISCOUNTING,2024.1.5,None,2024-11-12 08h26.36.974289 +0530,
40,55,62,6,5,47,3,159.86969910000334,,159.85520479999832,159.86969910000334,160.86911030000192,160.86911030000192,160.86911030000192,162.9561904000002,l,2.070147699996596,None,516143,001,2024-11-12_08h26.29.365,PRIYANSHI.AU2220101_DELAY.DISCOUNTING,2024.1.5,None,2024-11-12 08h26.36.974289 +0530,
27,50,21,6,6,48,2,162.97035869999672,,162.95700649998616,162.97035869999672,163.96897929999977,163.96897929999977,163.98589250000077,165.18705350000528,t,1.2100697999994736,None,516143,001,2024-11-12_08h26.29.365,PRIYANSHI.AU2220101_DELAY.DISCOUNTING,2024.1.5,None,2024-11-12 08h26.36.974289 +0530,
67,75,119,7,0,49,5,165.203846599994,,165.18815209998866,165.203846599994,166.20275820000097,166.20275820000097,166.21891259998665,167.12124099998618,t,0.9134078999923076,None,516143,001,2024-11-12_08h26.29.365,PRIYANSHI.AU2220101_DELAY.DISCOUNTING,2024.1.5,None,2024-11-12 08h26.36.974289 +0530,
49,60,89,7,1,50,4,167.13585679998505,,167.1221796000027,167.13585679998505,168.1355598999944,168.1355598999944,168.1355598999944,170.1872291000036,l,2.0414159999927506,None,516143,001,2024-11-12_08h26.29.365,PRIYANSHI.AU2220101_DELAY.DISCOUNTING,2024.1.5,None,2024-11-12 08h26.36.974289 +0530,
15,35,13,7,2,51,1,170.20484439999564,,170.18850640000892,170.20484439999564,171.20233470000676,171.20233470000676,171.21994000000996,172.85407569998642,t,1.647753900004318,None,516143,001,2024-11-12_08h26.29.365,PRIYANSHI.AU2220101_DELAY.DISCOUNTING,2024.1.5,None,2024-11-12 08h26.36.974289 +0530,
11,30,7,7,3,52,0,172.8713749999879,,172.85499249998247,172.8713749999879,173.8688839999959,173.8688839999959,173.88556850000168,176.0039223000058,t,2.1181043999968097,None,516143,001,2024-11-12_08h26.29.365,PRIYANSHI.AU2220101_DELAY.DISCOUNTING,2024.1.5,None,2024-11-12 08h26.36.974289 +0530,
40,55,62,7,4,53,3,176.01905279999482,,176.00469579998753,176.01905279999482,177.0187098000024,177.0187098000024,177.0187098000024,179.07006030000048,t,2.040932800009614,None,516143,001,2024-11-12_08h26.29.365,PRIYANSHI.AU2220101_DELAY.DISCOUNTING,2024.1.5,None,2024-11-12 08h26.36.974289 +0530,
78,80,162,7,5,54,6,179.0865322999889,,179.07140499999514,179.0865322999889,180.08587010001065,180.08587010001065,180.10177269999986,181.3540270999947,l,1.2629091999842785,None,516143,001,2024-11-12_08h26.29.365,PRIYANSHI.AU2220101_DELAY.DISCOUNTING,2024.1.5,None,2024-11-12 08h26.36.974289 +0530,
27,50,21,7,6,55,2,181.3699573999911,,181.3549645000021,181.3699573999911,182.36888829999953,182.36888829999953,182.36888829999953,184.48691509998753,t,2.100900299992645,None,516143,001,2024-11-12_08h26.29.365,PRIYANSHI.AU2220101_DELAY.DISCOUNTING,2024.1.5,None,2024-11-12 08h26.36.974289 +0530,
15,35,13,8,0,56,1,184.5019375999982,,184.48772509998525,184.5019375999982,185.5033887999889,185.5033887999889,185.5033887999889,186.93735550000565,t,1.4276484999863897,None,516143,001,2024-11-12_08h26.29.365,PRIYANSHI.AU2220101_DELAY.DISCOUNTING,2024.1.5,None,2024-11-12 08h26.36.974289 +0530,
78,80,162,8,1,57,6,186.968352099997,,186.93851199999335,186.968352099997,187.952271999995,187.952271999995,187.9685235999932,189.88620300000184,t,1.9263849999988452,None,516143,001,2024-11-12_08h26.29.365,PRIYANSHI.AU2220101_DELAY.DISCOUNTING,2024.1.5,None,2024-11-12 08h26.36.974289 +0530,
49,60,89,8,2,58,4,189.90282099999604,,189.8876447000075,189.90282099999604,190.90247579998686,190.90247579998686,190.90247579998686,193.32402589998674,t,2.406477899989113,None,516143,001,2024-11-12_08h26.29.365,PRIYANSHI.AU2220101_DELAY.DISCOUNTING,2024.1.5,None,2024-11-12 08h26.36.974289 +0530,
27,50,21,8,3,59,2,193.33985990000656,,193.3249772999843,193.33985990000656,194.33523699999205,194.33523699999205,194.35132079999312,196.11982679998619,l,1.777002699993318,None,516143,001,2024-11-12_08h26.29.365,PRIYANSHI.AU2220101_DELAY.DISCOUNTING,2024.1.5,None,2024-11-12 08h26.36.974289 +0530,
11,30,7,8,4,60,0,196.1388721000112,,196.12088010000298,196.1388721000112,197.13477770000463,197.13477770000463,197.15248489999794,199.0024615000002,t,1.8600937000010163,None,516143,001,2024-11-12_08h26.29.365,PRIYANSHI.AU2220101_DELAY.DISCOUNTING,2024.1.5,None,2024-11-12 08h26.36.974289 +0530,
40,55,62,8,5,61,3,199.01886069998727,,199.00322690000758,199.01886069998727,200.00190430000657,200.00190430000657,200.01947520000977,203.2867683999939,t,3.26746489998186,None,516143,001,2024-11-12_08h26.29.365,PRIYANSHI.AU2220101_DELAY.DISCOUNTING,2024.1.5,None,2024-11-12 08h26.36.974289 +0530,
67,75,119,8,6,62,5,203.30185329998494,,203.28752969999914,203.30185329998494,204.30130250001093,204.30130250001093,204.30130250001093,206.15329419999034,t,1.8348011999914888,None,516143,001,2024-11-12_08h26.29.365,PRIYANSHI.AU2220101_DELAY.DISCOUNTING,2024.1.5,None,2024-11-12 08h26.36.974289 +0530,
27,50,21,9,0,63,2,206.1695430999971,,206.15422820000094,206.1695430999971,207.16820149999694,207.16820149999694,207.16820149999694,209.3705609999888,t,2.1880613999965135,None,516143,001,2024-11-12_08h26.29.365,PRIYANSHI.AU2220101_DELAY.DISCOUNTING,2024.1.5,None,2024-11-12 08h26.36.974289 +0530,
40,55,62,9,1,64,3,209.3878058999835,,209.37132420000853,209.3878058999835,210.38537820000784,210.38537820000784,210.40138809999917,212.07109819998732,l,1.667322699999204,None,516143,001,2024-11-12_08h26.29.365,PRIYANSHI.AU2220101_DELAY.DISCOUNTING,2024.1.5,None,2024-11-12 08h26.36.974289 +0530,
11,30,7,9,2,65,0,212.08614969998598,,212.07186050000018,212.08614969998598,213.0855137000035,213.0855137000035,213.10161019998486,214.30306179999025,l,1.212221599998884,None,516143,001,2024-11-12_08h26.29.365,PRIYANSHI.AU2220101_DELAY.DISCOUNTING,2024.1.5,None,2024-11-12 08h26.36.974289 +0530,
78,80,162,9,3,66,6,214.32219929998973,,214.30430319998413,214.32219929998973,215.31898169999477,215.31898169999477,215.3342078999849,216.25363319998723,t,0.9292064000037499,None,516143,001,2024-11-12_08h26.29.365,PRIYANSHI.AU2220101_DELAY.DISCOUNTING,2024.1.5,None,2024-11-12 08h26.36.974289 +0530,
15,35,13,9,4,67,1,216.26967849998618,,216.25448860001052,216.26967849998618,217.26749709999422,217.26749709999422,217.28418119999697,218.6188361000095,l,1.3483473999949638,None,516143,001,2024-11-12_08h26.29.365,PRIYANSHI.AU2220101_DELAY.DISCOUNTING,2024.1.5,None,2024-11-12 08h26.36.974289 +0530,
49,60,89,9,5,68,4,218.63460039999336,,218.61975909999455,218.63460039999336,219.63471769998432,219.63471769998432,219.63471769998432,220.8365400999901,t,1.1954431000049226,None,516143,001,2024-11-12_08h26.29.365,PRIYANSHI.AU2220101_DELAY.DISCOUNTING,2024.1.5,None,2024-11-12 08h26.36.974289 +0530,
67,75,119,9,6,69,5,220.85495639999863,,220.8374124999973,220.85495639999863,221.85076729999855,221.85076729999855,221.86857719998807,223.4571256999916,t,1.5910520000034012,None,516143,001,2024-11-12_08h26.29.365,PRIYANSHI.AU2220101_DELAY.DISCOUNTING,2024.1.5,None,2024-11-12 08h26.36.974289 +0530,
78,80,162,10,0,70,6,223.4737121000071,,223.45796520001022,223.4737121000071,224.46832379998523,224.46832379998523,224.48435630000313,225.51862529999926,t,1.0370697999896947,None,516143,001,2024-11-12_08h26.29.365,PRIYANSHI.AU2220101_DELAY.DISCOUNTING,2024.1.5,None,2024-11-12 08h26.36.974289 +0530,
49,60,89,10,1,71,4,225.53659410000546,,225.51938019998488,225.53659410000546,226.51798050000798,226.51798050000798,226.55138339998666,228.06882210000185,t,1.5468028000032064,None,516143,001,2024-11-12_08h26.29.365,PRIYANSHI.AU2220101_DELAY.DISCOUNTING,2024.1.5,None,2024-11-12 08h26.36.974289 +0530,
40,55,62,10,2,72,3,228.0841131999914,,228.0698693000013,228.0841131999914,229.06724879998364,229.06724879998364,229.08395709999604,230.9693095999828,l,1.8980294999782927,None,516143,001,2024-11-12_08h26.29.365,PRIYANSHI.AU2220101_DELAY.DISCOUNTING,2024.1.5,None,2024-11-12 08h26.36.974289 +0530,
15,35,13,10,3,73,1,231.00001849999535,,230.97020809998503,231.00001849999535,231.98429940000642,231.98429940000642,232.0006393000076,233.10204410000006,l,1.114780600008089,None,516143,001,2024-11-12_08h26.29.365,PRIYANSHI.AU2220101_DELAY.DISCOUNTING,2024.1.5,None,2024-11-12 08h26.36.974289 +0530,
11,30,7,10,4,74,0,233.11716150000575,,233.10311259998707,233.11716150000575,234.11802329999045,234.11802329999045,234.11802329999045,235.36809929998708,l,1.237541800015606,None,516143,001,2024-11-12_08h26.29.365,PRIYANSHI.AU2220101_DELAY.DISCOUNTING,2024.1.5,None,2024-11-12 08h26.36.974289 +0530,
67,75,119,10,5,75,5,235.3841862999834,,235.36914819999947,235.3841862999834,236.38360120001016,236.38360120001016,236.38360120001016,237.16838779998943,t,0.7677343999966979,None,516143,001,2024-11-12_08h26.29.365,PRIYANSHI.AU2220101_DELAY.DISCOUNTING,2024.1.5,None,2024-11-12 08h26.36.974289 +0530,
27,50,21,10,6,76,2,237.18485419999342,,237.16920539998682,237.18485419999342,238.1839026999951,238.1839026999951,238.2004129999841,242.06846790001146,l,3.876952999999048,None,516143,001,2024-11-12_08h26.29.365,PRIYANSHI.AU2220101_DELAY.DISCOUNTING,2024.1.5,None,2024-11-12 08h26.36.974289 +0530,
27,50,21,11,0,77,2,242.08462390000932,,242.06951090000803,242.08462390000932,243.08348989998922,243.08348989998922,243.08348989998922,244.36895699999877,l,1.280329899978824,None,516143,001,2024-11-12_08h26.29.365,PRIYANSHI.AU2220101_DELAY.DISCOUNTING,2024.1.5,None,2024-11-12 08h26.36.974289 +0530,
11,30,7,11,1,78,0,244.3840215000091,,244.36985709998407,244.3840215000091,245.38417229999322,245.38417229999322,245.38417229999322,248.26990179999848,l,2.8697666999942157,None,516143,001,2024-11-12_08h26.29.365,PRIYANSHI.AU2220101_DELAY.DISCOUNTING,2024.1.5,None,2024-11-12 08h26.36.974289 +0530,
15,35,13,11,2,79,1,248.2932853999955,,248.27203240001108,248.2932853999955,249.2835068999848,249.2835068999848,249.29995570000028,252.38589169998886,l,3.099434799980372,None,516143,001,2024-11-12_08h26.29.365,PRIYANSHI.AU2220101_DELAY.DISCOUNTING,2024.1.5,None,2024-11-12 08h26.36.974289 +0530,
40,55,62,11,3,80,3,252.4036031999858,,252.38719889998902,252.4036031999858,253.40030099998694,253.40030099998694,253.41695240000263,254.26788430000306,t,0.8537070000020321,None,516143,001,2024-11-12_08h26.29.365,PRIYANSHI.AU2220101_DELAY.DISCOUNTING,2024.1.5,None,2024-11-12 08h26.36.974289 +0530,
67,75,119,11,4,81,5,254.2851543999859,,254.26930320000974,254.2851543999859,255.28318209998542,255.28318209998542,255.28318209998542,260.0016333000094,t,4.715106699994067,None,516143,001,2024-11-12_08h26.29.365,PRIYANSHI.AU2220101_DELAY.DISCOUNTING,2024.1.5,None,2024-11-12 08h26.36.974289 +0530,
49,60,89,11,5,82,4,260.01967259999947,,260.0025364999892,260.01967259999947,261.0165500000003,261.0165500000003,261.0336521999852,266.7685123999836,t,5.749833400011994,None,516143,001,2024-11-12_08h26.29.365,PRIYANSHI.AU2220101_DELAY.DISCOUNTING,2024.1.5,None,2024-11-12 08h26.36.974289 +0530,
78,80,162,11,6,83,6,266.7862155000039,,266.7697419000033,266.7862155000039,267.78335179999704,267.78335179999704,267.80026940000243,269.4673302999872,t,1.6758730000001378,None,516143,001,2024-11-12_08h26.29.365,PRIYANSHI.AU2220101_DELAY.DISCOUNTING,2024.1.5,None,2024-11-12 08h26.36.974289 +0530,
15,35,13,12,0,84,1,269.4842217999976,,269.4680599999847,269.4842217999976,270.48364479999873,270.48364479999873,270.50043630000437,272.0681834999996,l,1.5789071999897715,None,516143,001,2024-11-12_08h26.29.365,PRIYANSHI.AU2220101_DELAY.DISCOUNTING,2024.1.5,None,2024-11-12 08h26.36.974289 +0530,
78,80,162,12,1,85,6,272.08711849999963,,272.0694385000097,272.08711849999963,273.0834436999867,273.0834436999867,273.09963459998835,274.51805660000537,t,1.4276465000002645,None,516143,001,2024-11-12_08h26.29.365,PRIYANSHI.AU2220101_DELAY.DISCOUNTING,2024.1.5,None,2024-11-12 08h26.36.974289 +0530,
67,75,119,12,2,86,5,274.53312119998736,,274.5189742000075,274.53312119998736,275.53279629998724,275.53279629998724,275.53279629998724,281.37068980000913,t,5.823525300016627,None,516143,001,2024-11-12_08h26.29.365,PRIYANSHI.AU2220101_DELAY.DISCOUNTING,2024.1.5,None,2024-11-12 08h26.36.974289 +0530,
40,55,62,12,3,87,3,281.38816619999125,,281.37159989998327,281.38816619999125,282.38300229999004,282.38300229999004,282.3993725999899,284.9342047999962,t,2.5341029999835882,None,516143,001,2024-11-12_08h26.29.365,PRIYANSHI.AU2220101_DELAY.DISCOUNTING,2024.1.5,None,2024-11-12 08h26.36.974289 +0530,
11,30,7,12,4,88,0,284.94936480000615,,284.9352785999945,284.94936480000615,285.94913249998353,285.94913249998353,285.94913249998353,288.5842813999916,l,2.6265557000006083,None,516143,001,2024-11-12_08h26.29.365,PRIYANSHI.AU2220101_DELAY.DISCOUNTING,2024.1.5,None,2024-11-12 08h26.36.974289 +0530,
49,60,89,12,5,89,4,288.5994778999884,,288.5850283000036,288.5994778999884,289.59900899999775,289.59900899999775,289.59900899999775,290.6339241999958,t,1.024529500020435,None,516143,001,2024-11-12_08h26.29.365,PRIYANSHI.AU2220101_DELAY.DISCOUNTING,2024.1.5,None,2024-11-12 08h26.36.974289 +0530,
27,50,21,12,6,90,2,290.6523762999859,,290.6352671000059,290.6523762999859,291.6499218000099,291.6499218000099,291.66639480000595,293.43396019999636,t,1.77559229999315,None,516143,001,2024-11-12_08h26.29.365,PRIYANSHI.AU2220101_DELAY.DISCOUNTING,2024.1.5,None,2024-11-12 08h26.36.974289 +0530,
15,35,13,13,0,91,1,293.4501125999959,,293.4353010999912,293.4501125999959,294.4494727999845,294.4494727999845,294.46597009999095,296.9685576999909,l,2.506271599995671,None,516143,001,2024-11-12_08h26.29.365,PRIYANSHI.AU2220101_DELAY.DISCOUNTING,2024.1.5,None,2024-11-12 08h26.36.974289 +0530,
49,60,89,13,1,92,4,296.9900365000067,,296.97049370000605,296.9900365000067,297.9836481999955,297.9836481999955,297.99893830000656,299.20199579998734,t,1.2038405000057537,None,516143,001,2024-11-12_08h26.29.365,PRIYANSHI.AU2220101_DELAY.DISCOUNTING,2024.1.5,None,2024-11-12 08h26.36.974289 +0530,
27,50,21,13,2,93,2,299.23107380000874,,299.20287519998965,299.23107380000874,300.21619469998404,300.21619469998404,300.23257520000334,301.31756160000805,l,1.0986534999974538,None,516143,001,2024-11-12_08h26.29.365,PRIYANSHI.AU2220101_DELAY.DISCOUNTING,2024.1.5,None,2024-11-12 08h26.36.974289 +0530,
11,30,7,13,3,94,0,301.33225209999364,,301.31858950000606,301.33225209999364,302.3319709000061,302.3319709000061,302.3319709000061,302.96768370000063,l,0.6180099999764934,None,516143,001,2024-11-12_08h26.29.365,PRIYANSHI.AU2220101_DELAY.DISCOUNTING,2024.1.5,None,2024-11-12 08h26.36.974289 +0530,
67,75,119,13,4,95,5,302.9863561000093,,302.96906649999437,302.9863561000093,303.98205019999295,303.98205019999295,303.9989729000081,304.6162959999929,t,0.621225000009872,None,516143,001,2024-11-12_08h26.29.365,PRIYANSHI.AU2220101_DELAY.DISCOUNTING,2024.1.5,None,2024-11-12 08h26.36.974289 +0530,
78,80,162,13,5,96,6,304.63563889998477,,304.61727839999367,304.63563889998477,305.63298130000476,305.63298130000476,305.6490482999943,306.3666557999968,t,0.7310314000060316,None,516143,001,2024-11-12_08h26.29.365,PRIYANSHI.AU2220101_DELAY.DISCOUNTING,2024.1.5,None,2024-11-12 08h26.36.974289 +0530,
40,55,62,13,6,97,3,306.3873411999957,,306.3679817999946,306.3873411999957,307.3822838999913,307.3822838999913,307.3988535999961,308.79931339999894,l,1.4024777000013273,None,516143,001,2024-11-12_08h26.29.365,PRIYANSHI.AU2220101_DELAY.DISCOUNTING,2024.1.5,None,2024-11-12 08h26.36.974289 +0530,
